Folder: Notebooks/Glass OH Content/FTIR

File: Corning 7980.DPT
1998.13	0.00008
2005.84	0.00004
2013.56	0.00009
2021.27	0.00012
2028.98	0.00009
2036.7	0.00017
2044.41	0.00040
2052.13	0.00133
2059.84	0.00437
2067.56	0.01223
2075.27	0.02927
2082.99	0.05927
2090.7	0.10234
2098.42	0.15391
2106.13	0.20666
2113.85	0.25472
2121.56	0.29530
2129.28	0.32893
2136.99	0.35715
2144.71	0.38147
2152.42	0.40297
2160.14	0.42163
2167.85	0.43740
2175.57	0.44950
2183.28	0.45733
2190.99	0.46021
2198.71	0.45775
2206.42	0.45018
2214.14	0.43830
2221.85	0.42358
2229.57	0.40759
2237.28	0.39236
2245	0.37941
2252.71	0.36989
2260.43	0.36464
2268.14	0.36414
2275.86	0.36877
2283.57	0.37842
2291.29	0.39280
2299	0.41156
2306.72	0.43398
2314.43	0.45910
2322.15	0.48561
2329.86	0.51257
2337.58	0.53804
2345.29	0.56183
2353	0.57906
2360.72	0.59365
2368.43	0.60726
2376.15	0.61834
2383.86	0.62653
2391.58	0.63308
2399.29	0.63968
2407.01	0.64716
2414.72	0.65555
2422.44	0.66507
2430.15	0.67554
2437.87	0.68671
2445.58	0.69802
2453.3	0.70935
2461.01	0.72045
2468.73	0.73104
2476.44	0.74052
2484.16	0.74886
2491.87	0.75631
2499.59	0.76224
2507.3	0.76728
2515.02	0.77107
2522.73	0.77398
2530.44	0.77616
2538.16	0.77811
2545.87	0.77963
2553.59	0.78075
2561.3	0.78195
2569.02	0.78300
2576.73	0.78394
2584.45	0.78484
2592.16	0.78548
2599.88	0.78582
2607.59	0.78561
2615.31	0.78500
2623.02	0.78412
2630.74	0.78283
2638.45	0.78151
2646.17	0.78056
2653.88	0.78034
2661.6	0.78099
2669.31	0.78304
2677.03	0.78635
2684.74	0.79132
2692.45	0.79753
2700.17	0.80461
2707.88	0.81238
2715.6	0.82045
2723.31	0.82845
2731.03	0.83586
2738.74	0.84265
2746.46	0.84866
2754.17	0.85372
2761.89	0.85782
2769.6	0.86114
2777.32	0.86427
2785.03	0.86717
2792.75	0.86959
2800.46	0.87273
2808.18	0.87575
2815.89	0.87919
2823.61	0.88272
2831.32	0.88634
2839.04	0.89001
2846.75	0.89289
2854.47	0.89580
2862.18	0.89999
2869.89	0.90327
2877.61	0.90609
2885.32	0.90831
2893.04	0.91035
2900.75	0.91145
2908.47	0.91228
2916.18	0.91205
2923.9	0.91260
2931.61	0.91456
2939.33	0.91605
2947.04	0.91726
2954.76	0.91795
2962.47	0.91795
2970.19	0.91906
2977.9	0.91971
2985.62	0.91973
2993.33	0.92033
3001.05	0.92010
3008.76	0.92024
3016.48	0.92030
3024.19	0.92011
3031.9	0.91993
3039.62	0.91965
3047.33	0.91951
3055.05	0.91892
3062.76	0.91888
3070.48	0.91860
3078.19	0.91821
3085.91	0.91808
3093.62	0.91715
3101.34	0.91680
3109.05	0.91659
3116.77	0.91645
3124.48	0.91564
3132.2	0.91520
3139.91	0.91469
3147.63	0.91404
3155.34	0.91361
3163.06	0.91262
3170.77	0.91221
3178.49	0.91149
3186.2	0.91120
3193.91	0.91037
3201.63	0.91003
3209.34	0.90951
3217.06	0.90911
3224.77	0.90849
3232.49	0.90826
3240.2	0.90722
3247.92	0.90693
3255.63	0.90620
3263.35	0.90478
3271.06	0.90446
3278.78	0.90301
3286.49	0.90171
3294.21	0.90088
3301.92	0.89938
3309.64	0.89815
3317.35	0.89587
3325.07	0.89418
3332.78	0.89208
3340.5	0.89061
3348.21	0.88774
3355.93	0.88516
3363.64	0.88269
3371.35	0.87952
3379.07	0.87566
3386.78	0.87167
3394.5	0.86786
3402.21	0.86321
3409.93	0.85731
3417.64	0.85073
3425.36	0.84403
3433.07	0.83709
3440.79	0.82813
3448.5	0.81804
3456.22	0.80736
3463.93	0.79528
3471.65	0.78145
3479.36	0.76531
3487.08	0.74581
3494.79	0.72373
3502.51	0.69792
3510.22	0.66656
3517.94	0.63126
3525.65	0.59144
3533.36	0.54661
3541.08	0.49967
3548.79	0.44772
3556.51	0.39711
3564.22	0.34966
3571.94	0.29853
3579.65	0.25591
3587.37	0.21760
3595.08	0.18228
3602.8	0.15181
3610.51	0.12645
3618.23	0.10486
3625.94	0.08675
3633.66	0.06900
3641.37	0.05672
3649.09	0.04665
3656.8	0.03895
3664.52	0.03417
3672.23	0.03246
3679.95	0.03427
3687.66	0.04015
3695.37	0.05926
3703.09	0.10425
3710.8	0.19903
3718.52	0.37363
3726.23	0.56263
3733.95	0.66610
3741.66	0.72310
3749.38	0.75358
3757.09	0.77900
3764.81	0.79488
3772.52	0.80729
3780.24	0.81669
3787.95	0.82265
3795.67	0.82703
3803.38	0.83121
3811.1	0.83479
3818.81	0.83717
3826.53	0.83957
3834.24	0.84153
3841.96	0.84351
3849.67	0.84636
3857.39	0.84804
3865.1	0.85021
3872.81	0.85244
3880.53	0.85534
3888.24	0.85870
3895.96	0.86112
3903.67	0.86343
3911.39	0.86686
3919.1	0.86993
3926.82	0.87274
3934.53	0.87631
3942.25	0.87863
3949.96	0.88095
3957.68	0.88368
3965.39	0.88655
3973.11	0.88884
3980.82	0.89170
3988.54	0.89357
3996.25	0.89546