Folder: Notebooks/Glass/OH Content/FTIR

File: Borofloat.DPT
1998.13	0.00002
2005.84	0.00004
2013.56	-0.00006
2021.27	0.00006
2028.98	0.00006
2036.7	0.00014
2044.41	0.00024
2052.13	0.00041
2059.84	0.00072
2067.56	0.00108
2075.27	0.00146
2082.99	0.00186
2090.7	0.00224
2098.42	0.00267
2106.13	0.00315
2113.85	0.00379
2121.56	0.00462
2129.28	0.00584
2136.99	0.00736
2144.71	0.00938
2152.42	0.01187
2160.14	0.01481
2167.85	0.01833
2175.57	0.02237
2183.28	0.02656
2190.99	0.03096
2198.71	0.03532
2206.42	0.03953
2214.14	0.04356
2221.85	0.04722
2229.57	0.05060
2237.28	0.05366
2245	0.05652
2252.71	0.05930
2260.43	0.06199
2268.14	0.06475
2275.86	0.06777
2283.57	0.07111
2291.29	0.07496
2299	0.07944
2306.72	0.08469
2314.43	0.09061
2322.15	0.09741
2329.86	0.10487
2337.58	0.11247
2345.29	0.12051
2353	0.12717
2360.72	0.13408
2368.43	0.13964
2376.15	0.14384
2383.86	0.14649
2391.58	0.14745
2399.29	0.14710
2407.01	0.14572
2414.72	0.14332
2422.44	0.14036
2430.15	0.13671
2437.87	0.13264
2445.58	0.12810
2453.3	0.12325
2461.01	0.11823
2468.73	0.11320
2476.44	0.10850
2484.16	0.10425
2491.87	0.10076
2499.59	0.09808
2507.3	0.09654
2515.02	0.09596
2522.73	0.09654
2530.44	0.09817
2538.16	0.10080
2545.87	0.10437
2553.59	0.10892
2561.3	0.11431
2569.02	0.12059
2576.73	0.12750
2584.45	0.13483
2592.16	0.14246
2599.88	0.14983
2607.59	0.15650
2615.31	0.16209
2623.02	0.16596
2630.74	0.16760
2638.45	0.16689
2646.17	0.16348
2653.88	0.15762
2661.6	0.14948
2669.31	0.13959
2677.03	0.12849
2684.74	0.11661
2692.45	0.10473
2700.17	0.09325
2707.88	0.08271
2715.6	0.07337
2723.31	0.06542
2731.03	0.05895
2738.74	0.05408
2746.46	0.05090
2754.17	0.04921
2761.89	0.04928
2769.6	0.05093
2777.32	0.05434
2785.03	0.05912
2792.75	0.06553
2800.46	0.07348
2808.18	0.08276
2815.89	0.09349
2823.61	0.10546
2831.32	0.11884
2839.04	0.13372
2846.75	0.15026
2854.47	0.16855
2862.18	0.18914
2869.89	0.21182
2877.61	0.23645
2885.32	0.26288
2893.04	0.29082
2900.75	0.31988
2908.47	0.34952
2916.18	0.37902
2923.9	0.40824
2931.61	0.43726
2939.33	0.46508
2947.04	0.49118
2954.76	0.51530
2962.47	0.53739
2970.19	0.55807
2977.9	0.57650
2985.62	0.59296
2993.33	0.60793
3001.05	0.62061
3008.76	0.63230
3016.48	0.64257
3024.19	0.65093
3031.9	0.65832
3039.62	0.66448
3047.33	0.66979
3055.05	0.67374
3062.76	0.67699
3070.48	0.67950
3078.19	0.68106
3085.91	0.68216
3093.62	0.68199
3101.34	0.68155
3109.05	0.68084
3116.77	0.67989
3124.48	0.67779
3132.2	0.67594
3139.91	0.67353
3147.63	0.67112
3155.34	0.66862
3163.06	0.66552
3170.77	0.66271
3178.49	0.65954
3186.2	0.65680
3193.91	0.65343
3201.63	0.65047
3209.34	0.64731
3217.06	0.64418
3224.77	0.64080
3232.49	0.63768
3240.2	0.63395
3247.92	0.63082
3255.63	0.62724
3263.35	0.62334
3271.06	0.62022
3278.78	0.61615
3286.49	0.61225
3294.21	0.60864
3301.92	0.60453
3309.64	0.60058
3317.35	0.59583
3325.07	0.59167
3332.78	0.58693
3340.5	0.58286
3348.21	0.57779
3355.93	0.57292
3363.64	0.56804
3371.35	0.56274
3379.07	0.55716
3386.78	0.55171
3394.5	0.54633
3402.21	0.54057
3409.93	0.53448
3417.64	0.52767
3425.36	0.52145
3433.07	0.51538
3440.79	0.50816
3448.5	0.50104
3456.22	0.49409
3463.93	0.48685
3471.65	0.47944
3479.36	0.47202
3487.08	0.46388
3494.79	0.45571
3502.51	0.44750
3510.22	0.43820
3517.94	0.42942
3525.65	0.42018
3533.36	0.41082
3541.08	0.40151
3548.79	0.39122
3556.51	0.38155
3564.22	0.37200
3571.94	0.36234
3579.65	0.35405
3587.37	0.34608
3595.08	0.33874
3602.8	0.33342
3610.51	0.32954
3618.23	0.32875
3625.94	0.33133
3633.66	0.34006
3641.37	0.35416
3649.09	0.37598
3656.8	0.41033
3664.52	0.45348
3672.23	0.50746
3679.95	0.57180
3687.66	0.62349
3695.37	0.68582
3703.09	0.73914
3710.8	0.78268
3718.52	0.82035
3726.23	0.84081
3733.95	0.85215
3741.66	0.85912
3749.38	0.85988
3757.09	0.86683
3764.81	0.86942
3772.52	0.87056
3780.24	0.87224
3787.95	0.87345
3795.67	0.87391
3803.38	0.87309
3811.1	0.87463
3818.81	0.87370
3826.53	0.87438
3834.24	0.87311
3841.96	0.87333
3849.67	0.87509
3857.39	0.87325
3865.1	0.87402
3872.81	0.87378
3880.53	0.87416
3888.24	0.87476
3895.96	0.87444
3903.67	0.87395
3911.39	0.87548
3919.1	0.87575
3926.82	0.87619
3934.53	0.87727
3942.25	0.87695
3949.96	0.87758
3957.68	0.87845
3965.39	0.87931
3973.11	0.88008
3980.82	0.88101
3988.54	0.88182
3996.25	0.88244

File: Spectrosil 2000.DPT
1998.13	0.00006
2005.84	0.00003
2013.56	-0.00005
2021.27	0.00001
2028.98	0.00007
2036.7	0.00005
2044.41	0.00033
2052.13	0.00092
2059.84	0.00334
2067.56	0.00987
2075.27	0.02454
2082.99	0.05134
2090.7	0.09110
2098.42	0.13975
2106.13	0.19088
2113.85	0.23815
2121.56	0.27872
2129.28	0.31231
2136.99	0.34076
2144.71	0.36527
2152.42	0.38695
2160.14	0.40557
2167.85	0.42114
2175.57	0.43309
2183.28	0.44063
2190.99	0.44322
2198.71	0.44039
2206.42	0.43269
2214.14	0.42076
2221.85	0.40604
2229.57	0.39041
2237.28	0.37546
2245	0.36298
2252.71	0.35392
2260.43	0.34916
2268.14	0.34919
2275.86	0.35408
2283.57	0.36409
2291.29	0.37881
2299	0.39796
2306.72	0.42094
2314.43	0.44665
2322.15	0.47368
2329.86	0.50105
2337.58	0.52674
2345.29	0.55131
2353	0.56887
2360.72	0.58472
2368.43	0.59762
2376.15	0.60748
2383.86	0.61491
2391.58	0.62153
2399.29	0.62831
2407.01	0.63611
2414.72	0.64486
2422.44	0.65477
2430.15	0.66558
2437.87	0.67699
2445.58	0.68862
2453.3	0.70031
2461.01	0.71175
2468.73	0.72257
2476.44	0.73220
2484.16	0.74092
2491.87	0.74854
2499.59	0.75470
2507.3	0.75980
2515.02	0.76382
2522.73	0.76691
2530.44	0.76933
2538.16	0.77126
2545.87	0.77286
2553.59	0.77402
2561.3	0.77537
2569.02	0.77635
2576.73	0.77731
2584.45	0.77813
2592.16	0.77877
2599.88	0.77918
2607.59	0.77896
2615.31	0.77825
2623.02	0.77754
2630.74	0.77619
2638.45	0.77501
2646.17	0.77414
2653.88	0.77398
2661.6	0.77469
2669.31	0.77684
2677.03	0.78036
2684.74	0.78556
2692.45	0.79172
2700.17	0.79911
2707.88	0.80715
2715.6	0.81534
2723.31	0.82357
2731.03	0.83128
2738.74	0.83827
2746.46	0.84450
2754.17	0.84983
2761.89	0.85410
2769.6	0.85763
2777.32	0.86098
2785.03	0.86391
2792.75	0.86662
2800.46	0.86990
2808.18	0.87302
2815.89	0.87668
2823.61	0.88034
2831.32	0.88406
2839.04	0.88772
2846.75	0.89073
2854.47	0.89396
2862.18	0.89820
2869.89	0.90150
2877.61	0.90442
2885.32	0.90668
2893.04	0.90874
2900.75	0.91006
2908.47	0.91097
2916.18	0.91066
2923.9	0.91151
2931.61	0.91372
2939.33	0.91499
2947.04	0.91611
2954.76	0.91674
2962.47	0.91687
2970.19	0.91763
2977.9	0.91825
2985.62	0.91839
2993.33	0.91907
3001.05	0.91889
3008.76	0.91921
3016.48	0.91953
3024.19	0.91920
3031.9	0.91905
3039.62	0.91852
3047.33	0.91849
3055.05	0.91801
3062.76	0.91782
3070.48	0.91752
3078.19	0.91707
3085.91	0.91697
3093.62	0.91604
3101.34	0.91558
3109.05	0.91532
3116.77	0.91523
3124.48	0.91441
3132.2	0.91394
3139.91	0.91336
3147.63	0.91280
3155.34	0.91221
3163.06	0.91131
3170.77	0.91092
3178.49	0.91019
3186.2	0.90972
3193.91	0.90901
3201.63	0.90869
3209.34	0.90808
3217.06	0.90762
3224.77	0.90690
3232.49	0.90683
3240.2	0.90555
3247.92	0.90537
3255.63	0.90448
3263.35	0.90321
3271.06	0.90274
3278.78	0.90132
3286.49	0.89993
3294.21	0.89893
3301.92	0.89742
3309.64	0.89607
3317.35	0.89354
3325.07	0.89188
3332.78	0.88977
3340.5	0.88817
3348.21	0.88536
3355.93	0.88249
3363.64	0.87981
3371.35	0.87655
3379.07	0.87239
3386.78	0.86827
3394.5	0.86438
3402.21	0.85938
3409.93	0.85315
3417.64	0.84636
3425.36	0.83931
3433.07	0.83170
3440.79	0.82216
3448.5	0.81196
3456.22	0.80040
3463.93	0.78758
3471.65	0.77280
3479.36	0.75586
3487.08	0.73514
3494.79	0.71170
3502.51	0.68462
3510.22	0.65154
3517.94	0.61465
3525.65	0.57362
3533.36	0.52733
3541.08	0.47946
3548.79	0.42712
3556.51	0.37655
3564.22	0.32954
3571.94	0.27928
3579.65	0.23803
3587.37	0.20144
3595.08	0.16771
3602.8	0.13879
3610.51	0.11538
3618.23	0.09533
3625.94	0.07826
3633.66	0.06236
3641.37	0.05082
3649.09	0.04202
3656.8	0.03463
3664.52	0.03047
3672.23	0.02875
3679.95	0.03028
3687.66	0.03579
3695.37	0.05337
3703.09	0.09519
3710.8	0.18573
3718.52	0.35769
3726.23	0.55001
3733.95	0.65796
3741.66	0.71661
3749.38	0.74853
3757.09	0.77373
3764.81	0.78996
3772.52	0.80242
3780.24	0.81265
3787.95	0.81871
3795.67	0.82349
3803.38	0.82774
3811.1	0.83122
3818.81	0.83399
3826.53	0.83636
3834.24	0.83780
3841.96	0.84020
3849.67	0.84367
3857.39	0.84506
3865.1	0.84763
3872.81	0.84947
3880.53	0.85294
3888.24	0.85582
3895.96	0.85871
3903.67	0.86123
3911.39	0.86424
3919.1	0.86781
3926.82	0.87072
3934.53	0.87415
3942.25	0.87624
3949.96	0.87941
3957.68	0.88162
3965.39	0.88458
3973.11	0.88711
3980.82	0.88970
3988.54	0.89168
3996.25	0.89388