Folder: Notebooks/Glass OH Content/UVVIS/Transmission/data

File: Infrasil 301.Sample.Raw.csv
nm, %T
3300, 92.8891
3289, 92.8752
3278, 92.8716
3267, 92.8189
3256, 92.7404
3245, 92.7976
3234, 92.7475
3223, 92.6864
3212, 92.6745
3201, 92.6985
3190, 92.6196
3179, 92.6235
3168, 92.6034
3157, 92.6303
3146, 92.6143
3135, 92.5467
3124, 92.5778
3113, 92.6139
3102, 92.5891
3091, 92.6082
3080, 92.6133
3069, 92.5908
3058, 92.6169
3047, 92.5986
3036, 92.6183
3025, 92.6201
3014, 92.6069
3003, 92.6238
2992, 92.6489
2981, 92.6831
2970, 92.7153
2959, 92.7658
2948, 92.8019
2937, 92.8444
2926, 92.8741
2915, 92.8957
2904, 92.9467
2893, 93.0108
2882, 93.031
2871, 93.0901
2860, 93.0768
2849, 93.0913
2838, 93.1818
2827, 93.2484
2816, 93.1952
2805, 93.1772
2794, 93.3353
2783, 93.2655
2772, 93.1846
2761, 93.1178
2750, 93.0674
2739, 92.9864
2728, 92.9655
2717, 92.9642
2706, 93.1013
2695, 93.3301
2684, 93.7525
2673, 93.9352
2662, 93.7848
2651, 93.943
2640, 93.8566
2629, 93.7779
2618, 93.8669
2607, 93.7532
2596, 93.8441
2585, 93.9861
2574, 93.8827
2563, 93.8165
2552, 93.8472
2541, 93.9292
2530, 93.8205
2519, 93.8609
2508, 93.8317
2497, 93.8678
2486, 93.8635
2475, 93.854
2464, 93.8529
2453, 93.8419
2442, 93.8467
2431, 93.8398
2420, 93.84
2409, 93.8465
2398, 93.8484
2387, 93.837
2376, 93.8213
2365, 93.8427
2354, 93.8331
2343, 93.8397
2332, 93.8321
2321, 93.8073
2310, 93.8209
2299, 93.8237
2288, 93.8205
2277, 93.7902
2266, 93.8152
2255, 93.7988
2244, 93.7926
2233, 93.7814
2222, 93.7802
2211, 93.7698
2200, 93.7684
2189, 93.7644
2178, 93.7663
2167, 93.778
2156, 93.7681
2145, 93.7494
2134, 93.7571
2123, 93.7404
2112, 93.741
2101, 93.7498
2090, 93.742
2079, 93.753
2068, 93.715
2057, 93.7486
2046, 93.7279
2035, 93.728
2024, 93.7211
2013, 93.7357
2002, 93.7051
1991, 93.7083
1980, 93.7419
1969, 93.7146
1958, 93.687
1947, 93.7059
1936, 93.6391
1925, 93.6833
1914, 93.7822
1903, 93.7579
1892, 93.7469
1881, 93.6795
1870, 93.6884
1859, 93.6803
1848, 93.7465
1837, 93.5753
1826, 93.7881
1815, 93.7886
1804, 93.7212
1793, 93.7058
1782, 93.7071
1771, 93.7157
1760, 93.7276
1749, 93.7232
1738, 93.709
1727, 93.696
1716, 93.7099
1705, 93.6993
1694, 93.7084
1683, 93.711
1672, 93.7221
1661, 93.7055
1650, 93.717
1639, 93.7025
1628, 93.6927
1617, 93.7068
1606, 93.7179
1595, 93.6891
1584, 93.6772
1573, 93.6755
1562, 93.6824
1551, 93.6726
1540, 93.675
1529, 93.6722
1518, 93.6543
1507, 93.6608
1496, 93.6563
1485, 93.6261
1474, 93.6844
1463, 93.6513
1452, 93.6868
1441, 93.6426
1430, 93.6617
1419, 93.6366
1408, 93.6357
1397, 93.6047
1386, 93.6193
1375, 93.6525
1364, 93.695
1353, 93.6178
1342, 93.6356
1331, 93.6079
1320, 93.6082
1309, 93.5985
1298, 93.6164
1287, 93.6258
1276, 93.5948
1265, 93.6204
1254, 93.6071
1243, 93.6052
1232, 93.6269
1221, 93.63
1210, 93.6289
1199, 93.6085
1188, 93.5805
1177, 93.5788
1166, 93.5536
1155, 93.5684
1144, 93.5506
1133, 93.5815
1122, 93.571
1111, 93.5568
1100, 93.5439
1089, 93.5417
1078, 93.5357
1067, 93.5226
1056, 93.5273
1045, 93.5255
1034, 93.5048
1023, 93.5189
1012, 93.4935
1001, 93.5007
990, 93.4883
979, 93.4813
968, 93.5023
957, 93.4942
946, 93.4763
935, 93.4935
924, 93.4422
913, 93.4736
902, 93.4432
891, 93.4391
880, 93.4619
869, 93.4654
858, 93.4434
847, 93.3434
836, 93.3815
825, 93.3586
814, 93.3386
803, 93.3628
792, 93.3371
781, 93.3066
770, 93.3229
759, 93.2988
748, 93.2836
737, 93.3127
726, 93.3457
715, 93.265
704, 93.2601
693, 93.248
682, 93.2605
671, 93.309
660, 93.271
649, 93.2112
638, 93.253
627, 93.2063
616, 93.2172
605, 93.2143
594, 93.2461
583, 93.2103
572, 93.1514
561, 93.1586
550, 93.1663
539, 93.1679
528, 93.1407
517, 93.115
506, 93.1073
495, 93.1161
484, 93.0892
473, 93.0588
462, 92.9909
451, 92.9847
440, 92.9282
429, 92.9752
418, 92.9487
407, 92.8463
396, 92.8545
385, 92.7769
374, 92.7458
363, 92.6984
352, 92.64
341, 92.5681
330, 92.5025
319, 92.3872
308, 92.3697
297, 92.1992
286, 92.0296
275, 91.8892
264, 91.4417
253, 89.4703
250, 88.5145