Folder: Notebooks/Glass/OH Content/UVVIS/Transmission/data

File: Green Float.Sample.Raw.asc
PE UV       SUBTECH     SPECTRUM    ASCII       PEDS        4.00
   -1
Green __Green Float.Sample.Raw.asc
17/06/21
15:16:47.00
17/06/21
15:16:47.00
Administrator

250
1
Lambda 950
950L1205241
PerkinElmer UV WinLab 6.0.4.0738 / 1.61.00 Lambda 900

0
0
3350/servo 860.8/2
0
0
UV/VIS
1
1
1
DoublePol,CommonBeamDepol,RBeamAtt,SBeamAtt,uv/vis/nir detector
0
0
0
0
Program
Program
3350/servo 860.8/2
3350/0.2 860.8/0.2
3350/0.2 860.8/0.2
0
1

0

860.8
319.2
860.8
Front
100
on
S:100 R:100
0
0
0
0

0

0

0
0
0
0
0

0
0

0
0
#HDR
-1
-1
#GR
nm
%T
1.0
0.0
3300
-1.000000
3051
8
91.2868
-0.003367
#DATA
3300	62.9615
3289	63.08
3278	63.1583
3267	63.4462
3256	63.5872
3245	63.7573
3234	63.9099
3223	64.1357
3212	64.3552
3201	64.5661
3190	64.7102
3179	64.9096
3168	65.0794
3157	65.3114
3146	65.4748
3135	65.5892
3124	65.7189
3113	65.8701
3102	65.9354
3091	65.9958
3080	66.0617
3069	66.0935
3058	66.08
3047	66.0884
3036	66.0251
3025	65.9502
3014	65.8398
3003	65.7113
2992	65.5657
2981	65.4189
2970	65.2313
2959	65.0282
2948	64.9128
2937	64.6852
2926	64.4615
2915	64.2476
2904	64.0548
2893	63.8825
2882	63.7469
2871	63.6439
2860	63.608
2849	63.5876
2838	63.7453
2827	63.9588
2816	64.3373
2805	64.9848
2794	66.0923
2783	67.351
2772	69.2837
2761	71.8236
2750	75.4942
2739	78.5811
2728	82.3423
2717	85.4491
2706	87.7069
2695	88.6935
2684	89.0258
2673	89.3955
2662	89.8513
2651	89.7803
2640	89.7776
2629	89.7932
2618	89.9543
2607	90.1839
2596	90.093
2585	90.0099
2574	90.0744
2563	90.0245
2552	90.0374
2541	90.0743
2530	89.9677
2519	90.1668
2508	90.149
2497	90.2194
2486	90.2332
2475	90.2872
2464	90.3137
2453	90.3552
2442	90.389
2431	90.4381
2420	90.5134
2409	90.5598
2398	90.5664
2387	90.5744
2376	90.5726
2365	90.5959
2354	90.6139
2343	90.5917
2332	90.5771
2321	90.5697
2310	90.5451
2299	90.5135
2288	90.4616
2277	90.4514
2266	90.4116
2255	90.3553
2244	90.3315
2233	90.2722
2222	90.236
2211	90.267
2200	90.315
2189	90.4109
2178	90.5054
2167	90.5851
2156	90.6276
2145	90.6259
2134	90.6623
2123	90.6685
2112	90.6629
2101	90.6583
2090	90.6629
2079	90.6637
2068	90.6428
2057	90.6514
2046	90.6285
2035	90.6376
2024	90.6187
2013	90.6041
2002	90.5769
1991	90.6027
1980	90.6334
1969	90.5952
1958	90.5785
1947	90.579
1936	90.5843
1925	90.5711
1914	90.6427
1903	90.5891
1892	90.68
1881	90.6058
1870	90.5208
1859	90.6233
1848	90.7652
1837	90.6728
1826	90.6428
1815	90.717
1804	90.6754
1793	90.6658
1782	90.6983
1771	90.6793
1760	90.6862
1749	90.6978
1738	90.7151
1727	90.7151
1716	90.7162
1705	90.7161
1694	90.702
1683	90.6965
1672	90.6601
1661	90.6608
1650	90.6545
1639	90.6218
1628	90.5925
1617	90.5587
1606	90.5404
1595	90.5214
1584	90.4908
1573	90.4064
1562	90.3785
1551	90.3385
1540	90.2771
1529	90.2707
1518	90.1766
1507	90.1277
1496	90.0589
1485	89.9876
1474	89.9455
1463	89.8537
1452	89.785
1441	89.7115
1430	89.7284
1419	89.6674
1408	89.5076
1397	89.4204
1386	89.3937
1375	89.4053
1364	89.3165
1353	89.1498
1342	89.1451
1331	89.0911
1320	89.0628
1309	88.9976
1298	88.92
1287	88.8867
1276	88.8147
1265	88.7669
1254	88.7079
1243	88.7076
1232	88.6702
1221	88.636
1210	88.6076
1199	88.5577
1188	88.555
1177	88.5382
1166	88.4696
1155	88.4634
1144	88.4295
1133	88.383
1122	88.4402
1111	88.4222
1100	88.4153
1089	88.3975
1078	88.3836
1067	88.3628
1056	88.3654
1045	88.405
1034	88.3902
1023	88.4037
1012	88.3911
1001	88.4295
990	88.4226
979	88.4487
968	88.4753
957	88.5429
946	88.5724
935	88.6005
924	88.6286
913	88.6924
902	88.6998
891	88.8035
880	88.8551
869	88.9305
858	88.7031
847	88.6701
836	88.781
825	88.907
814	88.9499
803	89.1061
792	89.1945
781	89.2933
770	89.4155
759	89.5618
748	89.6119
737	89.8598
726	89.9939
715	90.0534
704	90.186
693	90.3049
682	90.4134
671	90.5307
660	90.6127
649	90.6983
638	90.8033
627	90.8698
616	90.9403
605	91.0476
594	91.1304
583	91.1575
572	91.1874
561	91.2495
550	91.272
539	91.2562
528	91.2256
517	91.2279
506	91.1824
495	91.114
484	91.0711
473	91.017
462	90.8639
451	90.6895
440	90.5209
429	90.5289
418	90.496
407	90.515
396	90.3918
385	89.4539
374	89.4294
363	88.9682
352	86.3825
341	79.6952
330	64.4473
319	38.2358
308	11.6677
297	0.999081
286	0.005769
275	0.000103
264	0.000510
253	0.003777
250	-0.000204